Time (ms),Latitude (deg),Longitude (deg),GNSS Altitude (m),Number of Satellites,PDOP,GNSS East Velocity (m/s),GNSS North Velocity (m/s),GNSS Up Velocity (m/s),GNSS Horizontal Accuracy (m),GNSS Vertical Accuracy (m),Low-G Acceleration X (m/s2),Low-G Acceleration Y (m/s2),Low-G Acceleration Z (m/s2),High-G Acceleration X (m/s2),High-G Acceleration Y (m/s2),High-G Acceleration Z (m/s2),Gyro X (deg/s),Gyro Y (deg/s),Gyro Z (deg/s),Pressure (Pa),Barometer Temperature (C),Pressure Altitude (m),Magnetic Field X (uT),Magnetic Field Y (uT),Magnetic Field Z (uT),Voltage (V),Current (mA),State of Charge (%),Quat q0,Quat q1,Quat q2,Quat q3,Roll (deg; body-Z azimuth),Pitch (deg; ZYX Euler),Yaw (deg; ZYX Euler),Roll Command (deg),Position East (m),Position North (m),Position Up (m),Velocity East (m/s),Velocity North (m/s),Velocity Up (m/s),Altitude Rate (m/s),Landed Flag,Apogee Detector: Baro,Apogee Detector: Velocity,Apogee Detector: GPS,Apogee Detector: Pitch,Apogee Flag (Master),Launch Flag,Pyro 1 Continuity,Pyro 2 Continuity,Pyro 3 Continuity,Pyro 4 Continuity,Pyro 1 Fired,Pyro 2 Fired,Pyro 3 Fired,Pyro 4 Fired,Reboot Recovery,FC Guidance Enabled,EKF Ticks
0.000,37.7749280,-122.4194280,123.456,17,1.3,-1.500,2.500,-0.900,4.0,7.0,-1.991976,-3.849876,76.614453,-2.451663,-3.983952,9.193734,-140.000000,-134.960000,-2.240000,101326.00,23.39,-0.09,258.000000,39.000000,185.100000,,,,-0.92390,0.38270,0.00000,0.00000,-90.00,-0.00,0.00,-38.00,28.00,-14.00,0.00,1.00,-2.00,0.00,0.0,0,0,0,0,0,0,0,1,0,0,0,1,0,0,0,0,0,364
100.000,37.7749280,-122.4194280,123.456,17,1.3,-1.500,2.500,-0.900,4.0,7.0,-1.977611,-3.816357,76.614453,-2.375048,-3.907337,9.193734,-140.000000,-129.780000,5.180000,101327.00,23.39,-0.17,256.500000,38.250000,185.100000,,,,-0.92390,0.38270,0.00000,0.00000,-90.00,-0.00,0.00,-37.75,29.00,-14.50,0.00,1.00,-2.00,0.00,0.0,0,0,0,0,0,0,0,1,0,0,0,1,0,0,0,0,0,377
200.000,37.7749300,-122.4194300,123.456,17,1.3,-1.500,2.500,-0.900,4.0,7.0,-1.963245,-3.782839,76.614453,-2.298434,-3.830723,9.193734,-140.000000,-124.600000,12.600000,101323.00,23.38,0.16,255.000000,37.500000,185.100000,4.074,-193.5,38.2,-0.92390,0.38270,0.00000,0.00000,-90.00,-0.00,0.00,-37.50,30.00,-15.00,0.00,1.00,-2.00,0.00,0.0,0,0,0,0,0,0,0,1,0,0,0,1,0,0,0,0,0,390
300.000,37.7749300,-122.4194300,123.456,17,1.3,-1.500,2.500,-0.900,4.0,7.0,-1.948880,-3.749320,76.614453,-2.221819,-3.754108,9.193734,-140.000000,-119.420000,20.020000,101324.00,23.38,0.08,253.500000,36.750000,185.100000,4.074,-193.5,38.2,-0.92390,0.38270,0.00000,0.00000,-90.00,-0.00,0.00,-37.25,31.00,-15.50,0.00,1.00,-2.00,0.00,0.0,0,0,0,0,0,0,0,1,0,0,0,1,0,0,0,0,0,403
400.000,37.7749320,-122.4194320,123.456,17,1.3,-1.500,2.500,-0.900,4.0,7.0,-1.934515,-3.715801,76.614453,-2.145205,-3.677494,9.193734,-140.000000,-114.240000,27.440000,101325.00,23.38,-0.00,252.000000,36.000000,185.100000,4.074,-193.5,38.2,1.00000,0.00000,0.00000,0.00000,-0.00,0.00,0.00,-37.00,32.00,-16.00,0.00,1.00,-2.00,0.00,0.0,0,0,0,0,0,0,0,1,0,0,0,1,0,0,0,0,0,416
500.000,37.7749320,-122.4194320,123.456,17,1.3,-1.500,2.500,-0.900,4.0,7.0,-1.920150,-3.682282,76.614453,-2.068590,-3.600879,9.193734,-140.000000,-109.060000,34.860000,101326.00,23.37,-0.09,250.500000,35.250000,185.100000,4.074,-193.5,38.2,1.00000,0.00000,0.00000,0.00000,-0.00,0.00,0.00,-36.75,33.00,-16.50,0.00,1.00,-2.00,0.00,0.0,0,0,0,0,0,0,0,1,0,0,0,1,0,0,0,0,0,429
600.000,37.7749340,-122.4194340,123.456,17,1.3,-1.500,2.500,-0.900,4.0,7.0,-1.905785,-3.648763,76.614453,-1.991976,-3.524265,9.193734,-140.000000,-103.880000,42.280000,101327.00,23.37,-0.17,249.000000,34.500000,185.100000,4.074,-193.5,38.2,1.00000,0.00000,0.00000,0.00000,-0.00,0.00,0.00,-36.50,34.00,-17.00,0.00,1.00,-2.00,0.00,0.0,0,0,0,0,0,0,0,1,0,0,0,1,0,0,0,0,0,442
700.000,37.7749340,-122.4194340,123.456,17,1.3,-1.500,2.500,-0.900,4.0,7.0,-1.891419,-3.615245,76.614453,-1.915361,-3.447650,9.193734,-140.000000,-98.700000,49.700000,101323.00,23.36,0.16,247.500000,33.750000,185.100000,4.067,-163.0,37.3,1.00000,0.00000,0.00000,0.00000,-0.00,0.00,0.00,-36.25,35.00,-17.50,0.00,1.00,-2.00,0.00,0.0,0,0,0,0,0,0,0,1,0,0,0,1,0,0,0,0,0,455
800.000,37.7749360,-122.4194360,123.456,17,1.3,-1.500,2.500,-0.900,4.0,7.0,-1.877054,-3.581726,76.614453,-1.838747,-3.371036,9.193734,-140.000000,-93.520000,57.120000,101324.00,23.36,0.08,246.000000,33.000000,185.100000,4.067,-163.0,37.3,0.92390,0.38270,0.00000,0.00000,90.00,0.00,0.00,-36.00,36.00,-18.00,0.00,1.00,-2.00,0.00,0.0,0,0,0,0,0,0,0,1,0,0,0,1,0,0,0,0,0,468
900.000,37.7749360,-122.4194360,123.456,17,1.3,-1.500,2.500,-0.900,4.0,7.0,-1.862689,-3.548207,76.614453,-1.762132,-3.294421,9.193734,-140.000000,-88.340000,64.540000,101325.00,23.36,-0.00,244.500000,32.250000,185.100000,4.067,-163.0,37.3,0.92390,0.38270,0.00000,0.00000,90.00,0.00,0.00,-35.75,37.00,-18.50,0.00,1.00,-2.00,0.00,0.0,0,0,0,0,0,0,0,1,0,0,0,1,0,0,0,0,0,481
1000.000,37.7749380,-122.4194380,123.456,17,1.3,-1.500,2.500,-0.900,4.0,7.0,-1.848324,-3.514688,76.614453,-1.685518,-3.217807,9.193734,-140.000000,-83.160000,71.960000,101326.00,23.35,-0.09,243.000000,31.500000,185.100000,4.067,-163.0,37.3,0.92390,0.38270,0.00000,0.00000,90.00,0.00,0.00,-35.50,38.00,-19.00,0.00,1.00,-2.00,0.00,0.0,0,0,0,0,0,0,0,1,0,0,0,1,0,0,0,0,0,494
1100.000,37.7749380,-122.4194380,123.456,17,1.3,-1.500,2.500,-0.900,4.0,7.0,-1.833958,-3.481169,76.614453,-1.608904,-3.141193,9.193734,-140.000000,-77.980000,79.380000,101327.00,23.35,-0.17,241.500000,30.750000,185.100000,4.067,-163.0,37.3,0.92390,0.38270,0.00000,0.00000,90.00,0.00,0.00,-35.25,39.00,-19.50,0.00,1.00,-2.00,0.00,0.0,0,0,0,0,0,0,0,1,0,0,0,1,0,0,0,0,0,507
1200.000,37.7749400,-122.4194400,123.456,17,1.3,-1.500,2.500,-0.900,4.0,7.0,-1.819593,-3.447650,76.614453,-1.532289,-3.064578,9.193734,-140.000000,-72.800000,86.800000,101323.00,23.34,0.16,240.000000,30.000000,185.100000,4.059,-132.5,36.3,0.70710,0.70710,0.00000,0.00000,90.00,0.00,0.00,-35.00,40.00,-20.00,0.00,1.00,-2.00,0.00,0.0,0,0,0,0,0,0,0,1,0,0,0,1,0,0,0,0,0,520
1300.000,37.7749400,-122.4194400,123.456,17,1.3,-1.500,2.500,-0.900,4.0,7.0,-1.805228,-3.414132,76.614453,-1.455675,-2.987964,9.193734,-140.000000,-67.620000,94.220000,101324.00,23.34,0.08,238.500000,29.250000,185.100000,4.059,-132.5,36.3,0.70710,0.70710,0.00000,0.00000,90.00,0.00,0.00,-34.75,41.00,-20.50,0.00,1.00,-2.00,0.00,0.0,0,0,0,0,0,0,0,1,0,0,0,1,0,0,0,0,0,533
1400.000,37.7749420,-122.4194420,123.456,17,1.3,-1.500,2.500,-0.900,4.0,7.0,-1.790863,-3.380613,76.614453,-1.379060,-2.911349,9.193734,-140.000000,-62.440000,101.640000,101325.00,23.34,-0.00,237.000000,28.500000,185.100000,4.059,-132.5,36.3,0.70710,0.70710,0.00000,0.00000,90.00,0.00,0.00,-34.50,42.00,-21.00,0.00,1.00,-2.00,0.00,0.0,0,0,0,0,0,0,0,1,0,0,0,1,0,0,0,0,0,546
1500.000,37.7749420,-122.4194420,123.456,17,1.3,-1.500,2.500,-0.900,4.0,7.0,-1.776498,-3.347094,76.614453,-1.302446,-2.834735,9.193734,-140.000000,-57.260000,109.060000,101326.00,23.33,-0.09,235.500000,27.750000,185.100000,4.059,-132.5,36.3,0.70710,0.70710,0.00000,0.00000,90.00,0.00,0.00,-34.25,43.00,-21.50,0.00,1.00,-2.00,0.00,0.0,0,0,0,0,0,0,0,1,0,0,0,1,0,0,0,0,0,559
1600.000,37.7749440,-122.4194440,123.456,17,1.3,-1.500,2.500,-0.900,4.0,7.0,-1.762132,-3.313575,76.614453,-1.225831,-2.758120,9.193734,-140.000000,-52.080000,116.480000,101327.00,23.33,-0.17,234.000000,27.000000,185.100000,4.059,-132.5,36.3,0.38270,0.92390,0.00000,0.00000,90.00,0.00,0.00,-34.00,44.00,-22.00,0.00,1.00,-2.00,0.00,0.0,0,0,0,0,0,0,0,1,0,0,0,1,0,0,0,0,0,572
1700.000,37.7749440,-122.4194440,123.456,17,1.3,-1.500,2.500,-0.900,4.0,7.0,-1.747767,-3.280056,76.614453,-1.149217,-2.681506,9.193734,-140.000000,-46.900000,123.900000,101323.00,23.32,0.16,232.500000,26.250000,185.100000,4.051,-101.9,35.4,0.38270,0.92390,0.00000,0.00000,90.00,0.00,0.00,-33.75,45.00,-22.50,0.00,1.00,-2.00,0.00,0.0,0,0,0,0,0,0,0,1,0,0,0,1,0,0,0,0,0,585
1800.000,37.7749460,-122.4194460,123.456,17,1.3,-1.500,2.500,-0.900,4.0,7.0,-1.733402,-3.246537,76.614453,-1.072602,-2.604891,9.193734,-140.000000,-41.720000,131.320000,101324.00,23.32,0.08,231.000000,25.500000,185.100000,4.051,-101.9,35.4,0.38270,0.92390,0.00000,0.00000,90.00,0.00,0.00,-33.50,46.00,-23.00,0.00,1.00,-2.00,0.00,0.0,0,0,0,0,0,0,0,1,0,0,0,1,0,0,0,0,0,598
1900.000,37.7749460,-122.4194460,123.456,17,1.3,-1.500,2.500,-0.900,4.0,7.0,-1.719037,-3.213019,76.614453,-0.995988,-2.528277,9.193734,-140.000000,-36.540000,138.740000,101325.00,23.32,-0.00,229.500000,24.750000,185.100000,4.051,-101.9,35.4,0.38270,0.92390,0.00000,0.00000,90.00,0.00,0.00,-33.25,47.00,-23.50,0.00,1.00,-2.00,0.00,0.0,0,0,0,0,0,0,0,1,0,0,0,1,0,0,0,0,0,611
2000.000,37.7749480,-122.4194480,123.456,17,1.3,-1.500,2.500,-0.900,4.0,7.0,-1.704672,-3.179500,76.614453,-0.919373,-2.451662,9.193734,-140.000000,-31.360000,146.160000,101326.00,23.31,-0.09,228.000000,24.000000,185.100000,4.051,-101.9,35.4,0.00000,1.00000,0.00000,0.00000,-0.00,0.00,0.00,-33.00,48.00,-24.00,0.00,1.00,-2.00,0.00,0.0,0,0,0,0,0,0,0,1,0,0,0,1,0,0,0,0,0,624
2100.000,37.7749480,-122.4194480,123.456,17,1.3,-1.500,2.500,-0.900,4.0,7.0,-1.690306,-3.145981,76.614453,-0.842759,-2.375048,9.193734,-140.000000,-26.180000,153.580000,101327.00,23.31,-0.17,226.500000,23.250000,185.100000,4.051,-101.9,35.4,0.00000,1.00000,0.00000,0.00000,-0.00,0.00,0.00,-32.75,49.00,-24.50,0.00,1.00,-2.00,0.00,0.0,0,0,0,0,0,0,0,1,0,0,0,1,0,0,0,0,0,637
2200.000,37.7749500,-122.4194500,123.456,17,1.3,-1.500,2.500,-0.900,4.0,7.0,-1.675941,-3.112462,76.614453,-0.766145,-2.298434,9.193734,-140.000000,-21.000000,161.000000,101323.00,23.30,0.16,225.000000,22.500000,185.100000,4.044,-71.4,34.5,0.00000,1.00000,0.00000,0.00000,-0.00,0.00,0.00,-32.50,50.00,-25.00,0.00,1.00,-2.00,0.00,0.0,0,0,0,0,0,0,0,1,0,0,0,1,0,0,0,0,0,650
2300.000,37.7749500,-122.4194500,123.456,17,1.3,-1.500,2.500,-0.900,4.0,7.0,-1.661576,-3.078943,76.614453,-0.689530,-2.221819,9.193734,-140.000000,-15.820000,168.420000,101324.00,23.30,0.08,223.500000,21.750000,185.100000,4.044,-71.4,34.5,0.00000,1.00000,0.00000,0.00000,-0.00,0.00,0.00,-32.25,51.00,-25.50,0.00,1.00,-2.00,0.00,0.0,0,0,0,0,0,0,0,1,0,0,0,1,0,0,0,0,0,663
2400.000,37.7749520,-122.4194520,123.456,17,1.3,-1.500,2.500,-0.900,4.0,7.0,-1.647211,-3.045425,76.614453,-0.612916,-2.145205,9.193734,-140.000000,-10.640000,175.840000,101325.00,23.30,-0.00,222.000000,21.000000,185.100000,4.044,-71.4,34.5,-0.38270,0.92390,0.00000,0.00000,-90.00,-0.00,0.00,-32.00,52.00,-26.00,0.00,1.00,-2.00,0.00,0.0,0,0,0,0,0,0,0,1,0,0,0,1,0,0,0,0,0,676
2500.000,37.7749520,-122.4194520,123.456,17,1.3,-1.500,2.500,-0.900,4.0,7.0,-1.632846,-3.011906,76.614453,-0.536301,-2.068590,9.193734,-140.000000,-5.460000,183.260000,101326.00,23.29,-0.09,220.500000,20.250000,185.100000,4.044,-71.4,34.5,-0.38270,0.92390,0.00000,0.00000,-90.00,-0.00,0.00,-31.75,53.00,-26.50,0.00,1.00,-2.00,0.00,0.0,0,0,0,0,0,0,0,1,0,0,0,1,0,0,0,0,0,689
2600.000,37.7749540,-122.4194540,123.456,17,1.3,-1.500,2.500,-0.900,4.0,7.0,-1.618480,-2.978387,76.614453,-0.459687,-1.991976,9.193734,-140.000000,-0.280000,190.680000,101327.00,23.29,-0.17,219.000000,19.500000,185.100000,4.044,-71.4,34.5,-0.38270,0.92390,0.00000,0.00000,-90.00,-0.00,0.00,-31.50,54.00,-27.00,0.00,1.00,-2.00,0.00,0.0,0,0,0,0,0,0,0,1,0,0,0,1,0,0,0,0,0,702
2700.000,37.7749540,-122.4194540,123.456,17,1.3,-1.500,2.500,-0.900,4.0,7.0,-1.604115,-2.944868,76.614453,-0.383072,-1.915361,9.193734,-140.000000,4.900000,198.100000,101323.00,23.29,0.16,217.500000,18.750000,185.100000,4.036,-40.9,33.6,-0.38270,0.92390,0.00000,0.00000,-90.00,-0.00,0.00,-31.25,55.00,-27.50,0.00,1.00,-2.00,0.00,0.0,0,0,0,0,0,0,0,1,0,0,0,1,0,0,0,0,0,715
2800.000,37.7749560,-122.4194560,123.456,17,1.3,-1.500,2.500,-0.900,4.0,7.0,-1.589750,-2.911349,76.614453,-0.306458,-1.838747,9.193734,-140.000000,10.080000,205.520000,101324.00,23.28,0.08,216.000000,18.000000,185.100000,4.036,-40.9,33.6,-0.70710,0.70710,0.00000,0.00000,-90.00,-0.00,0.00,-31.00,56.00,-28.00,0.00,1.00,-2.00,0.00,0.0,0,0,0,0,0,0,0,1,0,0,0,1,0,0,0,0,0,728
2900.000,37.7749560,-122.4194560,123.456,17,1.3,-1.500,2.500,-0.900,4.0,7.0,-1.575385,-2.877830,76.614453,-0.229843,-1.762132,9.193734,-140.000000,15.260000,-207.200000,101325.00,23.28,-0.00,214.500000,17.250000,185.100000,4.036,-40.9,33.6,-0.70710,0.70710,0.00000,0.00000,-90.00,-0.00,0.00,-30.75,57.00,-28.50,0.00,1.00,-2.00,0.00,0.0,0,0,0,0,0,0,0,1,0,0,0,1,0,0,0,0,0,741
3000.000,37.7749580,-122.4194580,123.456,17,1.3,-1.500,2.500,-0.900,4.0,7.0,-1.561019,-2.844312,76.614453,-0.153229,-1.685518,9.193734,-140.000000,20.440000,-199.780000,101326.00,23.27,-0.09,213.000000,16.500000,185.100000,4.036,-40.9,33.6,-0.70710,0.70710,0.00000,0.00000,-90.00,-0.00,0.00,-30.50,58.00,-29.00,0.00,1.00,-2.00,0.00,0.0,0,0,0,0,0,0,0,1,0,0,0,1,0,0,0,0,0,754
3100.000,37.7749580,-122.4194580,123.456,17,1.3,-1.500,2.500,-0.900,4.0,7.0,-1.546654,-2.810793,76.614453,-0.076614,-1.608904,9.193734,-140.000000,25.620000,-192.360000,101327.00,23.27,-0.17,211.500000,15.750000,185.100000,4.036,-40.9,33.6,-0.70710,0.70710,0.00000,0.00000,-90.00,-0.00,0.00,-30.25,59.00,-29.50,0.00,1.00,-2.00,0.00,0.0,0,0,0,0,0,0,0,1,0,0,0,1,0,0,0,0,0,767
3200.000,37.7749600,-122.4194600,123.456,17,1.3,-1.500,2.500,-0.900,4.0,7.0,-1.532289,-2.777274,76.614453,-0.000000,-1.532289,9.193734,-140.000000,30.800000,-184.940000,101323.00,23.27,0.16,210.000000,15.000000,185.100000,4.028,-10.4,32.7,-0.92390,0.38270,0.00000,0.00000,-90.00,-0.00,0.00,-30.00,60.00,-30.00,0.00,1.00,-2.00,0.00,0.0,0,0,0,0,0,0,0,1,0,0,0,1,0,0,0,0,0,780
3300.000,37.7749600,-122.4194600,123.456,17,1.3,-1.500,2.500,-0.900,4.0,7.0,-1.517924,-2.743755,76.614453,0.076614,-1.455675,9.193734,-140.000000,35.980000,-177.520000,101324.00,23.26,0.08,208.500000,14.250000,185.100000,4.028,-10.4,32.7,-0.92390,0.38270,0.00000,0.00000,-90.00,-0.00,0.00,-29.75,61.00,-30.50,0.00,1.00,-2.00,0.00,0.0,0,0,0,0,0,0,0,1,0,0,0,1,0,0,0,0,0,793
3400.000,37.7749620,-122.4194620,123.456,17,1.3,-1.500,2.500,-0.900,4.0,7.0,-1.503559,-2.710236,76.614453,0.153229,-1.379060,9.193734,-140.000000,41.160000,-170.100000,101325.00,23.26,-0.00,207.000000,13.500000,185.100000,4.028,-10.4,32.7,-0.92390,0.38270,0.00000,0.00000,-90.00,-0.00,0.00,-29.50,62.00,-31.00,0.00,1.00,-2.00,0.00,0.0,0,0,0,0,0,0,0,1,0,0,0,1,0,0,0,0,0,806
3500.000,37.7749620,-122.4194620,123.456,17,1.3,-1.500,2.500,-0.900,4.0,7.0,-1.489193,-2.676717,76.614453,0.229843,-1.302446,9.193734,-140.000000,46.340000,-162.680000,101326.00,23.25,-0.09,205.500000,12.750000,185.100000,4.028,-10.4,32.7,-0.92390,0.38270,0.00000,0.00000,-90.00,-0.00,0.00,-29.25,63.00,-31.50,0.00,1.00,-2.00,0.00,0.0,0,0,0,0,0,0,0,1,0,0,0,1,0,0,0,0,0,819
3600.000,37.7749640,-122.4194640,123.456,17,1.3,-1.500,2.500,-0.900,4.0,7.0,-1.474828,-2.643199,76.614453,0.306458,-1.225831,9.193734,-140.000000,51.520000,-155.260000,101327.00,23.25,-0.17,204.000000,12.000000,185.100000,4.028,-10.4,32.7,1.00000,0.00000,0.00000,0.00000,-0.00,0.00,0.00,-29.00,64.00,-32.00,0.00,1.00,-2.00,0.00,0.0,0,0,0,0,0,0,0,1,0,0,0,1,0,0,0,0,0,832
3700.000,37.7749640,-122.4194640,123.456,17,1.3,-1.500,2.500,-0.900,4.0,7.0,-1.460463,-2.609680,76.614453,0.383072,-1.149217,9.193734,-140.000000,56.700000,-147.840000,101323.00,23.25,0.16,202.500000,11.250000,185.100000,4.021,20.1,31.8,1.00000,0.00000,0.00000,0.00000,-0.00,0.00,0.00,-28.75,65.00,-32.50,0.00,1.00,-2.00,0.00,0.0,0,0,0,0,0,0,0,1,0,0,0,1,0,0,0,0,0,845
3800.000,37.7749660,-122.4194660,123.456,17,1.3,-1.500,2.500,-0.900,4.0,7.0,-1.446098,-2.576161,76.614453,0.459687,-1.072602,9.193734,-140.000000,61.880000,-140.420000,101324.00,23.24,0.08,201.000000,10.500000,185.100000,4.021,20.1,31.8,1.00000,0.00000,0.00000,0.00000,-0.00,0.00,0.00,-28.50,66.00,-33.00,0.00,1.00,-2.00,0.00,0.0,0,0,0,0,0,0,0,1,0,0,0,1,0,0,0,0,0,858
3900.000,37.7749660,-122.4194660,123.456,17,1.3,-1.500,2.500,-0.900,4.0,7.0,-1.431733,-2.542642,76.614453,0.536301,-0.995988,9.193734,-140.000000,67.060000,-133.000000,101325.00,23.24,-0.00,199.500000,9.750000,185.100000,4.021,20.1,31.8,1.00000,0.00000,0.00000,0.00000,-0.00,0.00,0.00,-28.25,67.00,-33.50,0.00,1.00,-2.00,0.00,0.0,0,0,0,0,0,0,0,1,0,0,0,1,0,0,0,0,0,871
4000.000,37.7749680,-122.4194680,123.456,17,1.3,-1.500,2.500,0.000,4.0,7.0,-1.417367,-2.509123,124.498486,0.612916,-0.919373,9.193734,-140.000000,72.240000,-125.580000,101325.00,23.23,-0.00,198.000000,9.000000,185.100000,4.021,20.1,31.8,0.92390,0.38270,0.00000,0.00000,90.00,0.00,0.00,-28.00,68.00,-34.00,0.00,1.00,-2.00,0.00,0.0,0,0,0,0,0,0,1,1,0,0,0,1,0,0,0,0,0,884
4100.000,37.7749680,-122.4194680,123.456,17,1.3,-1.500,2.500,0.000,4.0,7.0,-1.403002,-2.475605,124.498486,0.689530,-0.842759,9.193734,-140.000000,77.420000,-118.160000,101225.00,23.23,8.33,196.500000,8.250000,185.100000,4.021,20.1,31.8,0.92390,0.38270,0.00000,0.00000,90.00,0.00,0.00,-27.75,69.00,-34.50,8.00,1.00,-2.00,8.00,8.0,0,0,0,0,0,0,1,1,0,0,0,1,0,0,0,0,0,897
4200.000,37.7749700,-122.4194700,139.456,17,1.3,-1.500,2.500,16.000,4.0,7.0,-1.388637,-2.442086,124.498486,0.766145,-0.766145,9.193734,-140.000000,82.600000,-110.740000,101125.00,23.23,16.66,195.000000,7.500000,185.100000,4.013,50.7,30.8,0.92390,0.38270,0.00000,0.00000,90.00,0.00,0.00,-27.50,70.00,-35.00,16.00,1.00,-2.00,16.00,16.0,0,0,0,0,0,0,1,1,0,0,0,1,0,0,0,0,0,910
4300.000,37.7749700,-122.4194700,139.456,17,1.3,-1.500,2.500,16.000,4.0,7.0,-1.374272,-2.408567,124.498486,0.842759,-0.689530,9.193734,-140.000000,87.780000,-103.320000,101025.00,23.22,25.00,193.500000,6.750000,185.100000,4.013,50.7,30.8,0.92390,0.38270,0.00000,0.00000,90.00,0.00,0.00,-27.25,71.00,-35.50,24.00,1.00,-2.00,24.00,24.0,0,0,0,0,0,0,1,1,0,0,0,1,0,0,0,0,0,923
4400.000,37.7749720,-122.4194720,155.456,17,1.3,-1.500,2.500,32.000,4.0,7.0,-1.359907,-2.375048,124.498486,0.919373,-0.612916,9.193734,-140.000000,92.960000,-95.900000,100925.00,23.22,33.35,192.000000,6.000000,185.100000,4.013,50.7,30.8,0.70710,0.70710,0.00000,0.00000,90.00,0.00,0.00,-27.00,72.00,-36.00,32.00,1.00,-2.00,32.00,32.0,0,0,0,0,0,0,1,1,0,0,0,1,0,0,0,0,0,936
4500.000,37.7749720,-122.4194720,155.456,17,1.3,-1.500,2.500,32.000,4.0,7.0,-1.345541,-2.341529,124.498486,0.995988,-0.536301,9.193734,-140.000000,98.140000,-88.480000,100825.00,23.21,41.71,190.500000,5.250000,185.100000,4.013,50.7,30.8,0.70710,0.70710,0.00000,0.00000,90.00,0.00,0.00,-26.75,73.00,-36.50,40.00,1.00,-2.00,40.00,40.0,0,0,0,0,0,0,1,1,0,0,0,1,0,0,0,0,0,949
4600.000,37.7749740,-122.4194740,171.456,17,1.3,-1.500,2.500,48.000,4.0,7.0,-1.331176,-2.308010,124.498486,1.072602,-0.459687,9.193734,-140.000000,103.320000,-81.060000,100725.00,23.21,50.07,189.000000,4.500000,185.100000,4.013,50.7,30.8,0.70710,0.70710,0.00000,0.00000,90.00,0.00,0.00,-26.50,74.00,-37.00,48.00,1.00,-2.00,48.00,48.0,0,0,0,0,0,0,1,1,0,0,0,1,0,0,0,0,0,962
4700.000,37.7749740,-122.4194740,171.456,17,1.3,-1.500,2.500,48.000,4.0,7.0,-1.316811,-2.274492,124.498486,1.149217,-0.383072,9.193734,-140.000000,108.500000,-73.640000,100625.00,23.21,58.44,187.500000,3.750000,185.100000,4.005,81.2,29.9,0.70710,0.70710,0.00000,0.00000,90.00,0.00,0.00,-26.25,75.00,-37.50,56.00,1.00,-2.00,56.00,56.0,0,0,0,0,0,0,1,1,0,0,0,1,0,0,0,0,0,975
4800.000,37.7749760,-122.4194760,187.456,17,1.3,-1.500,2.500,64.000,4.0,7.0,-1.302446,-2.240973,124.498486,1.225831,-0.306458,9.193734,-140.000000,113.680000,-66.220000,100525.00,23.20,66.81,186.000000,3.000000,185.100000,4.005,81.2,29.9,0.38270,0.92390,0.00000,0.00000,90.00,0.00,0.00,-26.00,76.00,-38.00,64.00,1.00,-2.00,64.00,64.0,0,0,0,0,0,0,1,1,0,0,0,1,0,0,0,0,0,988
4900.000,37.7749760,-122.4194760,187.456,17,1.3,-1.500,2.500,64.000,4.0,7.0,-1.288080,-2.207454,124.498486,1.302446,-0.229843,9.193734,-140.000000,118.860000,-58.800000,100425.00,23.20,75.20,184.500000,2.250000,185.100000,4.005,81.2,29.9,0.38270,0.92390,0.00000,0.00000,90.00,0.00,0.00,-25.75,77.00,-38.50,72.00,1.00,-2.00,72.00,72.0,0,0,0,0,0,0,1,1,0,0,0,1,0,0,0,0,0,1001
5000.000,37.7749780,-122.4194780,203.456,17,1.3,-1.500,2.500,80.000,4.0,7.0,-1.273715,-2.173935,124.498486,1.379060,-0.153229,9.193734,-140.000000,124.040000,-51.380000,100325.00,23.20,83.59,183.000000,1.500000,185.100000,4.005,81.2,29.9,0.38270,0.92390,0.00000,0.00000,90.00,0.00,0.00,-25.50,78.00,-39.00,80.00,1.00,-2.00,80.00,80.0,0,0,0,0,0,0,1,1,0,0,0,1,0,0,0,0,0,1014
5100.000,37.7749780,-122.4194780,203.456,17,1.3,-1.500,2.500,80.000,4.0,7.0,-1.259350,-2.140416,124.498486,1.455675,-0.076614,9.193734,-140.000000,129.220000,-43.960000,100225.00,23.19,91.98,181.500000,0.750000,185.100000,4.005,81.2,29.9,0.38270,0.92390,0.00000,0.00000,90.00,0.00,0.00,-25.25,79.00,-39.50,88.00,1.00,-2.00,88.00,88.0,0,0,0,0,0,0,1,1,0,0,0,1,0,0,0,0,0,1027
5200.000,37.7749800,-122.4194800,219.456,17,1.3,-1.500,2.500,96.000,4.0,7.0,-1.244985,-2.106897,124.498486,1.532289,-0.000000,9.193734,-140.000000,134.400000,-36.540000,100125.00,23.19,100.38,180.000000,-0.000000,185.100000,3.998,111.7,29.0,0.00000,1.00000,0.00000,0.00000,-0.00,0.00,0.00,-25.00,80.00,-40.00,96.00,1.00,-2.00,96.00,96.0,0,0,0,0,0,0,1,1,0,0,0,1,0,0,0,0,0,1040
5300.000,37.7749800,-122.4194800,219.456,17,1.3,-1.500,2.500,96.000,4.0,7.0,-1.230620,-2.073379,124.498486,1.608904,0.076614,9.193734,-140.000000,139.580000,-29.120000,100025.00,23.18,108.79,178.500000,-0.750000,185.100000,3.998,111.7,29.0,0.00000,1.00000,0.00000,0.00000,-0.00,0.00,0.00,-24.75,81.00,-40.50,104.00,1.00,-2.00,104.00,104.0,0,0,0,0,0,0,1,1,0,0,0,1,0,0,0,0,0,1053
5400.000,37.7749820,-122.4194820,235.456,17,1.3,-1.500,2.500,112.000,4.0,7.0,-1.216254,-2.039860,124.498486,1.685518,0.153229,9.193734,-140.000000,144.760000,-21.700000,99925.00,23.18,117.21,177.000000,-1.500000,185.100000,3.998,111.7,29.0,0.00000,1.00000,0.00000,0.00000,-0.00,0.00,0.00,-24.50,82.00,-41.00,112.00,1.00,-2.00,112.00,112.0,0,0,0,0,0,0,1,1,0,0,0,1,0,0,0,0,0,1066
5500.000,37.7749820,-122.4194820,235.456,17,1.3,-1.500,2.500,112.000,4.0,7.0,-1.201889,-2.006341,124.498486,1.762132,0.229843,9.193734,-140.000000,149.940000,-14.280000,99825.00,23.18,125.63,175.500000,-2.250000,185.100000,3.998,111.7,29.0,0.00000,1.00000,0.00000,0.00000,-0.00,0.00,0.00,-24.25,83.00,-41.50,120.00,1.00,-2.00,120.00,120.0,0,0,0,0,0,0,1,1,0,0,0,1,0,0,0,0,0,1079
5600.000,37.7749840,-122.4194840,251.456,17,1.3,-1.500,2.500,128.000,4.0,7.0,-1.187524,-1.972822,124.498486,1.838747,0.306458,9.193734,-140.000000,155.120000,-6.860000,99725.00,23.17,134.06,174.000000,-3.000000,185.100000,3.998,111.7,29.0,-0.38270,0.92390,0.00000,0.00000,-90.00,-0.00,0.00,-24.00,84.00,-42.00,128.00,1.00,-2.00,128.00,128.0,0,0,0,0,0,0,1,1,0,0,0,1,0,0,0,0,0,1092
5700.000,37.7749840,-122.4194840,251.456,17,1.3,-1.500,2.500,128.000,4.0,7.0,-1.173159,-1.939303,124.498486,1.915361,0.383072,9.193734,-140.000000,160.300000,0.560000,99625.00,23.17,142.50,172.500000,-3.750000,185.100000,3.990,142.2,28.1,-0.38270,0.92390,0.00000,0.00000,-90.00,-0.00,0.00,-23.75,85.00,-42.50,136.00,1.00,-2.00,136.00,136.0,0,0,0,0,0,0,1,1,0,0,0,1,0,0,0,0,0,1105
5800.000,37.7749860,-122.4194860,267.456,17,1.3,-1.500,2.500,144.000,4.0,7.0,-1.158794,-1.905785,124.498486,1.991976,0.459687,9.193734,-140.000000,165.480000,7.980000,99525.00,23.16,150.94,171.000000,-4.500000,185.100000,3.990,142.2,28.1,-0.38270,0.92390,0.00000,0.00000,-90.00,-0.00,0.00,-23.50,86.00,-43.00,144.00,1.00,-2.00,144.00,144.0,0,0,0,0,0,0,1,1,0,0,0,1,0,0,0,0,0,1118
5900.000,37.7749860,-122.4194860,267.456,17,1.3,-1.500,2.500,144.000,4.0,7.0,-1.144428,-1.872266,124.498486,2.068590,0.536301,9.193734,-140.000000,170.660000,15.400000,99425.00,23.16,159.39,169.500000,-5.250000,185.100000,3.990,142.2,28.1,-0.38270,0.92390,0.00000,0.00000,-90.00,-0.00,0.00,-23.25,87.00,-43.50,152.00,1.00,-2.00,152.00,152.0,0,0,0,0,0,0,1,1,0,0,0,1,0,0,0,0,0,1131
6000.000,37.7749880,-122.4194880,283.456,17,1.3,-1.500,2.500,-0.900,4.0,7.0,-1.130063,-1.838747,76.614453,2.145205,0.612916,9.193734,-140.000000,175.840000,22.820000,99325.00,23.16,167.85,168.000000,-6.000000,185.100000,3.990,142.2,28.1,-0.70710,0.70710,0.00000,0.00000,-90.00,-0.00,0.00,-23.00,88.00,-44.00,160.00,1.00,-2.00,160.00,160.0,0,0,0,0,0,0,1,1,0,0,0,1,0,0,0,0,0,1144
6100.000,37.7749880,-122.4194880,283.456,17,1.3,-1.500,2.500,-0.900,4.0,7.0,-1.115698,-1.805228,76.614453,2.221819,0.689530,9.193734,-140.000000,181.020000,30.240000,99225.00,23.15,176.32,166.500000,-6.750000,185.100000,3.990,142.2,28.1,-0.70710,0.70710,0.00000,0.00000,-90.00,-0.00,0.00,-22.75,89.00,-44.50,168.00,1.00,-2.00,156.00,156.0,0,0,0,0,0,0,1,1,0,0,0,1,0,0,0,0,0,1157
6200.000,37.7749900,-122.4194900,299.456,17,1.3,-1.500,2.500,-0.900,4.0,7.0,-1.101333,-1.771709,76.614453,2.298434,0.766145,9.193734,-140.000000,186.200000,37.660000,99125.00,23.15,184.79,165.000000,-7.500000,185.100000,3.983,172.7,27.2,-0.70710,0.70710,0.00000,0.00000,-90.00,-0.00,0.00,-22.50,90.00,-45.00,176.00,1.00,-2.00,152.00,152.0,0,0,0,0,0,0,1,1,0,0,0,1,0,0,0,0,0,1170
6300.000,37.7749900,-122.4194900,299.456,17,1.3,-1.500,2.500,-0.900,4.0,7.0,-1.086968,-1.738190,76.614453,2.375048,0.842759,9.193734,-140.000000,191.380000,45.080000,99025.00,23.14,193.27,163.500000,-8.250000,185.100000,3.983,172.7,27.2,-0.70710,0.70710,0.00000,0.00000,-90.00,-0.00,0.00,-22.25,91.00,-45.50,184.00,1.00,-2.00,148.00,148.0,0,0,0,0,0,0,1,1,0,0,0,1,0,0,0,0,0,1183
6400.000,37.7749920,-122.4194920,315.456,17,1.3,-1.500,2.500,-0.900,4.0,7.0,-1.072602,-1.704672,76.614453,2.451662,0.919373,9.193734,-140.000000,196.560000,52.500000,98925.00,23.14,201.75,162.000000,-9.000000,185.100000,3.983,172.7,27.2,-0.92390,0.38270,0.00000,0.00000,-90.00,-0.00,0.00,-22.00,92.00,-46.00,192.00,1.00,-2.00,144.00,144.0,0,0,0,0,0,0,1,1,0,0,0,1,0,0,0,0,0,1196
6500.000,37.7749920,-122.4194920,315.456,17,1.3,-1.500,2.500,-0.900,4.0,7.0,-1.058237,-1.671153,76.614453,2.528277,0.995988,9.193734,-140.000000,201.740000,59.920000,98825.00,23.14,210.24,160.500000,-9.750000,185.100000,3.983,172.7,27.2,-0.92390,0.38270,0.00000,0.00000,-90.00,-0.00,0.00,-21.75,93.00,-46.50,200.00,1.00,-2.00,140.00,140.0,0,0,0,0,0,0,1,1,0,0,0,1,0,0,0,0,0,1209
6600.000,37.7749940,-122.4194940,331.456,17,1.3,-1.500,2.500,-0.900,4.0,7.0,-1.043872,-1.637634,76.614453,2.604891,1.072602,9.193734,-140.000000,206.920000,67.340000,98725.00,23.13,218.74,159.000000,-10.500000,185.100000,3.983,172.7,27.2,-0.92390,0.38270,0.00000,0.00000,-90.00,-0.00,0.00,-21.50,94.00,-47.00,208.00,1.00,-2.00,136.00,136.0,0,0,0,0,0,0,1,1,0,0,0,1,0,0,0,0,0,1222
6700.000,37.7749940,-122.4194940,331.456,17,1.3,-1.500,2.500,-0.900,4.0,7.0,-1.029507,-1.604115,76.614453,2.681506,1.149217,9.193734,-140.000000,212.100000,74.760000,98625.00,23.13,227.25,157.500000,-11.250000,185.100000,3.975,203.3,26.3,-0.92390,0.38270,0.00000,0.00000,-90.00,-0.00,0.00,-21.25,95.00,-47.50,216.00,1.00,-2.00,132.00,132.0,0,0,0,0,0,0,1,1,0,0,0,1,0,0,0,0,0,1235
6800.000,37.7749960,-122.4194960,347.456,17,1.3,-1.500,2.500,-0.900,4.0,7.0,-1.015142,-1.570596,76.614453,2.758120,1.225831,9.193734,-140.000000,217.280000,82.180000,98525.00,23.12,235.76,156.000000,-12.000000,185.100000,3.975,203.3,26.3,1.00000,0.00000,0.00000,0.00000,-0.00,0.00,0.00,-21.00,96.00,-48.00,224.00,1.00,-2.00,128.00,128.0,0,0,0,0,0,0,1,1,0,0,0,1,0,0,0,0,0,1248
6900.000,37.7749960,-122.4194960,347.456,17,1.3,-1.500,2.500,-0.900,4.0,7.0,-1.000776,-1.537077,76.614453,2.834735,1.302446,9.193734,-140.000000,222.460000,89.600000,98425.00,23.12,244.28,154.500000,-12.750000,185.100000,3.975,203.3,26.3,1.00000,0.00000,0.00000,0.00000,-0.00,0.00,0.00,-20.75,97.00,-48.50,232.00,1.00,-2.00,124.00,124.0,0,0,0,0,0,0,1,1,0,0,0,1,0,0,0,0,0,1261
7000.000,37.7749980,-122.4194980,363.456,17,1.3,-1.500,2.500,-0.900,4.0,7.0,-0.986411,-1.503559,76.614453,2.911349,1.379060,9.193734,-140.000000,227.640000,97.020000,98325.00,23.12,252.81,153.000000,-13.500000,185.100000,3.975,203.3,26.3,1.00000,0.00000,0.00000,0.00000,-0.00,0.00,0.00,-20.50,98.00,-49.00,240.00,1.00,-2.00,120.00,120.0,0,0,0,0,0,0,1,1,0,0,0,1,0,0,0,0,0,1274
7100.000,37.7749980,-122.4194980,363.456,17,1.3,-1.500,2.500,-0.900,4.0,7.0,-0.972046,-1.470040,76.614453,2.987964,1.455675,9.193734,-140.000000,232.820000,104.440000,98225.00,23.11,261.34,151.500000,-14.250000,185.100000,3.975,203.3,26.3,1.00000,0.00000,0.00000,0.00000,-0.00,0.00,0.00,-20.25,99.00,-49.50,248.00,1.00,-2.00,116.00,116.0,0,0,0,0,0,0,1,1,0,0,0,1,0,0,0,0,0,1287
7200.000,37.7750000,-122.4195000,379.456,17,1.3,-1.500,2.500,-0.900,4.0,7.0,-0.957681,-1.436521,76.614453,3.064578,1.532289,9.193734,-140.000000,238.000000,111.860000,98125.00,23.11,269.88,150.000000,-15.000000,185.100000,3.967,233.8,25.4,0.92390,0.38270,0.00000,0.00000,90.00,0.00,0.00,-20.00,100.00,-50.00,256.00,1.00,-2.00,112.00,112.0,0,0,0,0,0,0,1,1,0,0,0,1,0,0,0,0,0,1300
7300.000,37.7750000,-122.4195000,379.456,17,1.3,-1.500,2.500,-0.900,4.0,7.0,-0.943315,-1.403002,76.614453,3.141193,1.608904,9.193734,-140.000000,243.180000,119.280000,98025.00,23.11,278.43,148.500000,-15.750000,185.100000,3.967,233.8,25.4,0.92390,0.38270,0.00000,0.00000,90.00,0.00,0.00,-19.75,101.00,-50.50,264.00,1.00,-2.00,108.00,108.0,0,0,0,0,0,0,1,1,0,0,0,1,0,0,0,0,0,1313
7400.000,37.7750020,-122.4195020,395.456,17,1.3,-1.500,2.500,-0.900,4.0,7.0,-0.928950,-1.369483,76.614453,3.217807,1.685518,9.193734,-140.000000,248.360000,126.700000,97925.00,23.10,286.99,147.000000,-16.500000,185.100000,3.967,233.8,25.4,0.92390,0.38270,0.00000,0.00000,90.00,0.00,0.00,-19.50,102.00,-51.00,272.00,1.00,-2.00,104.00,104.0,0,0,0,0,0,0,1,1,0,0,0,1,0,0,0,0,0,1326
7500.000,37.7750020,-122.4195020,395.456,17,1.3,-1.500,2.500,-0.900,4.0,7.0,-0.914585,-1.335965,76.614453,3.294421,1.762132,9.193734,-140.000000,253.540000,134.120000,97825.00,23.10,295.55,145.500000,-17.250000,185.100000,3.967,233.8,25.4,0.92390,0.38270,0.00000,0.00000,90.00,0.00,0.00,-19.25,103.00,-51.50,280.00,1.00,-2.00,100.00,100.0,0,0,0,0,0,0,1,1,0,0,0,1,0,0,0,0,0,1339
7600.000,37.7750040,-122.4195040,411.456,17,1.3,-1.500,2.500,-0.900,4.0,7.0,-0.900220,-1.302446,76.614453,3.371036,1.838747,9.193734,-140.000000,258.720000,141.540000,97725.00,23.09,304.12,144.000000,-18.000000,185.100000,3.967,233.8,25.4,0.70710,0.70710,0.00000,0.00000,90.00,0.00,0.00,-19.00,104.00,-52.00,288.00,1.00,-2.00,96.00,96.0,0,0,0,0,0,0,1,1,0,0,0,1,0,0,0,0,0,1352
7700.000,37.7750040,-122.4195040,411.456,17,1.3,-1.500,2.500,-0.900,4.0,7.0,-0.885855,-1.268927,76.614453,3.447650,1.915361,9.193734,-140.000000,263.900000,148.960000,97625.00,23.09,312.70,142.500000,-18.750000,185.100000,3.960,264.3,24.4,0.70710,0.70710,0.00000,0.00000,90.00,0.00,0.00,-18.75,105.00,-52.50,296.00,1.00,-2.00,92.00,92.0,0,0,0,0,0,0,1,1,0,0,0,1,0,0,0,0,0,1365
7800.000,37.7750060,-122.4195060,427.456,17,1.3,-1.500,2.500,-0.900,4.0,7.0,-0.871489,-1.235408,76.614453,3.524265,1.991976,9.193734,-140.000000,269.080000,156.380000,97525.00,23.09,321.28,141.000000,-19.500000,185.100000,3.960,264.3,24.4,0.70710,0.70710,0.00000,0.00000,90.00,0.00,0.00,-18.50,106.00,-53.00,304.00,1.00,-2.00,88.00,88.0,0,0,0,0,0,0,1,1,0,0,0,1,0,0,0,0,0,1378
7900.000,37.7750060,-122.4195060,427.456,17,1.3,-1.500,2.500,-0.900,4.0,7.0,-0.857124,-1.201889,76.614453,3.600879,2.068590,9.193734,-140.000000,274.260000,163.800000,97425.00,23.08,329.87,139.500000,-20.250000,185.100000,3.960,264.3,24.4,0.70710,0.70710,0.00000,0.00000,90.00,0.00,0.00,-18.25,107.00,-53.50,312.00,1.00,-2.00,84.00,84.0,0,0,0,0,0,0,1,1,0,0,0,1,0,0,0,0,0,1391
8000.000,37.7750080,-122.4195080,443.456,17,1.3,-1.500,2.500,-0.900,4.0,7.0,-0.842759,-1.168370,76.614453,3.677494,2.145205,9.193734,-140.000000,279.440000,171.220000,97325.00,23.08,338.47,138.000000,-21.000000,185.100000,3.960,264.3,24.4,0.38270,0.92390,0.00000,0.00000,90.00,0.00,0.00,-18.00,108.00,-54.00,320.00,1.00,-2.00,80.00,80.0,0,0,0,0,0,0,1,1,0,0,0,1,0,0,0,0,0,1404
8100.000,37.7750080,-122.4195080,443.456,17,1.3,-1.500,2.500,-0.900,4.0,7.0,-0.828394,-1.134852,76.614453,3.754108,2.221819,9.193734,-140.000000,-275.520000,178.640000,97225.00,23.07,347.07,136.500000,-21.750000,185.100000,3.960,264.3,24.4,0.38270,0.92390,0.00000,0.00000,90.00,0.00,0.00,-17.75,109.00,-54.50,328.00,1.00,-2.00,76.00,76.0,0,0,0,0,0,0,1,1,0,0,0,1,0,0,0,0,0,1417
8200.000,37.7750100,-122.4195100,459.456,17,1.3,-1.500,2.500,-0.900,4.0,7.0,-0.814029,-1.101333,76.614453,3.830723,2.298434,9.193734,-140.000000,-270.340000,186.060000,97125.00,23.07,355.68,135.000000,-22.500000,185.100000,3.952,294.8,23.5,0.38270,0.92390,0.00000,0.00000,90.00,0.00,0.00,-17.50,110.00,-55.00,336.00,1.00,-2.00,72.00,72.0,0,0,0,0,0,0,1,1,0,0,0,1,0,0,0,0,0,1430
8300.000,37.7750100,-122.4195100,459.456,17,1.3,-1.500,2.500,-0.900,4.0,7.0,-0.799663,-1.067814,76.614453,3.907337,2.375048,9.193734,-140.000000,-265.160000,193.480000,97025.00,23.07,364.30,133.500000,-23.250000,185.100000,3.952,294.8,23.5,0.38270,0.92390,0.00000,0.00000,90.00,0.00,0.00,-17.25,111.00,-55.50,344.00,1.00,-2.00,68.00,68.0,0,0,0,0,0,0,1,1,0,0,0,1,0,0,0,0,0,1443
8400.000,37.7750120,-122.4195120,475.456,17,1.3,-1.500,2.500,-0.900,4.0,7.0,-0.785298,-1.034295,76.614453,3.983952,2.451662,9.193734,-140.000000,-259.980000,200.900000,96925.00,23.06,372.93,132.000000,-24.000000,185.100000,3.952,294.8,23.5,0.00000,1.00000,0.00000,0.00000,-0.00,0.00,0.00,-17.00,112.00,-56.00,352.00,1.00,-2.00,64.00,64.0,0,0,0,0,0,0,1,1,0,0,0,1,0,0,0,0,0,1456
8500.000,37.7750120,-122.4195120,475.456,17,1.3,-1.500,2.500,-0.900,4.0,7.0,-0.770933,-1.000776,76.614453,4.060566,2.528277,9.193734,-140.000000,-254.800000,208.320000,96825.00,23.06,381.56,130.500000,-24.750000,185.100000,3.952,294.8,23.5,0.00000,1.00000,0.00000,0.00000,-0.00,0.00,0.00,-16.75,113.00,-56.50,360.00,1.00,-2.00,60.00,60.0,0,0,0,0,0,0,1,1,0,0,0,1,0,0,0,0,0,1469
8600.000,37.7750140,-122.4195140,491.456,17,1.3,-1.500,2.500,-0.900,4.0,7.0,-0.756568,-0.967257,76.614453,4.137180,2.604891,9.193734,-140.000000,-249.620000,-204.400000,96725.00,23.05,390.21,129.000000,-25.500000,185.100000,3.952,294.8,23.5,0.00000,1.00000,0.00000,0.00000,-0.00,0.00,0.00,-16.50,114.00,-57.00,368.00,1.00,-2.00,56.00,56.0,0,0,0,0,0,0,1,1,0,0,0,1,0,0,0,0,0,1482
8700.000,37.7750140,-122.4195140,491.456,17,1.3,-1.500,2.500,-0.900,4.0,7.0,-0.742203,-0.933739,76.614453,4.213795,2.681506,9.193734,-140.000000,-244.440000,-196.980000,96625.00,23.05,398.85,127.500000,-26.250000,185.100000,3.944,325.3,22.6,0.00000,1.00000,0.00000,0.00000,-0.00,0.00,0.00,-16.25,115.00,-57.50,376.00,1.00,-2.00,52.00,52.0,0,0,0,0,0,0,1,1,0,0,0,1,0,0,0,0,0,1495
8800.000,37.7750160,-122.4195160,507.456,17,1.3,-1.500,2.500,-0.900,4.0,7.0,-0.727837,-0.900220,76.614453,4.290409,2.758120,9.193734,-140.000000,-239.260000,-189.560000,96525.00,23.05,407.51,126.000000,-27.000000,185.100000,3.944,325.3,22.6,-0.38270,0.92390,0.00000,0.00000,-90.00,-0.00,0.00,-16.00,116.00,-58.00,384.00,1.00,-2.00,48.00,48.0,0,0,0,0,0,0,1,1,0,0,0,1,0,0,0,0,0,1508
8900.000,37.7750160,-122.4195160,507.456,17,1.3,-1.500,2.500,-0.900,4.0,7.0,-0.713472,-0.866701,76.614453,4.367024,2.834735,9.193734,-140.000000,-234.080000,-182.140000,96425.00,23.04,416.17,124.500000,-27.750000,185.100000,3.944,325.3,22.6,-0.38270,0.92390,0.00000,0.00000,-90.00,-0.00,0.00,-15.75,117.00,-58.50,392.00,1.00,-2.00,44.00,44.0,0,0,0,0,0,0,1,1,0,0,0,1,0,0,0,0,0,1521
9000.000,37.7750180,-122.4195180,523.456,17,1.3,-1.500,2.500,-0.900,4.0,7.0,-0.699107,-0.833182,76.614453,4.443638,2.911349,9.193734,-140.000000,-228.900000,-174.720000,96325.00,23.04,424.84,123.000000,-28.500000,185.100000,3.944,325.3,22.6,-0.38270,0.92390,0.00000,0.00000,-90.00,-0.00,0.00,-15.50,118.00,-59.00,400.00,1.00,-2.00,40.00,40.0,0,0,0,0,0,0,1,1,0,0,0,1,0,0,0,0,0,1534
9100.000,37.7750180,-122.4195180,523.456,17,1.3,-1.500,2.500,-0.900,4.0,7.0,-0.684742,-0.799663,76.614453,4.520253,2.987964,9.193734,-140.000000,-223.720000,-167.300000,96225.00,23.04,433.52,121.500000,-29.250000,185.100000,3.944,325.3,22.6,-0.38270,0.92390,0.00000,0.00000,-90.00,-0.00,0.00,-15.25,119.00,-59.50,408.00,1.00,-2.00,36.00,36.0,0,0,0,0,0,0,1,1,0,0,0,1,0,0,0,0,0,1547
9200.000,37.7750200,-122.4195200,539.456,17,1.3,-1.500,2.500,-0.900,4.0,7.0,-0.670376,-0.766145,76.614453,4.596867,3.064578,9.193734,-140.000000,-218.540000,-159.880000,96125.00,23.03,442.20,120.000000,-30.000000,185.100000,3.937,355.8,21.7,-0.70710,0.70710,0.00000,0.00000,-90.00,-0.00,0.00,-15.00,120.00,-60.00,416.00,1.00,-2.00,32.00,32.0,0,0,0,0,0,0,1,1,0,0,0,1,0,0,0,0,0,1560
9300.000,37.7750200,-122.4195200,539.456,17,1.3,-1.500,2.500,-0.900,4.0,7.0,-0.656011,-0.732626,76.614453,4.673482,3.141193,9.193734,-140.000000,-213.360000,-152.460000,96025.00,23.03,450.90,118.500000,-30.750000,185.100000,3.937,355.8,21.7,-0.70710,0.70710,0.00000,0.00000,-90.00,-0.00,0.00,-14.75,121.00,-60.50,424.00,1.00,-2.00,28.00,28.0,0,0,0,0,0,0,1,1,0,0,0,1,0,0,0,0,0,1573
9400.000,37.7750220,-122.4195220,555.456,17,1.3,-1.500,2.500,-0.900,4.0,7.0,-0.641646,-0.699107,76.614453,4.750096,3.217807,9.193734,-140.000000,-208.180000,-145.040000,95925.00,23.02,459.60,117.000000,-31.500000,185.100000,3.937,355.8,21.7,-0.70710,0.70710,0.00000,0.00000,-90.00,-0.00,0.00,-14.50,122.00,-61.00,432.00,1.00,-2.00,24.00,24.0,0,0,0,0,0,0,1,1,0,0,0,1,0,0,0,0,0,1586
9500.000,37.7750220,-122.4195220,555.456,17,1.3,-1.500,2.500,-0.900,4.0,7.0,-0.627281,-0.665588,76.614453,4.826711,3.294421,9.193734,-140.000000,-203.000000,-137.620000,95825.00,23.02,468.30,115.500000,-32.250000,185.100000,3.937,355.8,21.7,-0.70710,0.70710,0.00000,0.00000,-90.00,-0.00,0.00,-14.25,123.00,-61.50,440.00,1.00,-2.00,20.00,20.0,0,0,0,0,0,0,1,1,0,0,0,1,0,0,0,0,0,1599
9600.000,37.7750240,-122.4195240,571.456,17,1.3,-1.500,2.500,-0.900,4.0,7.0,-0.612916,-0.632069,76.614453,4.903325,3.371036,9.193734,-140.000000,-197.820000,-130.200000,95725.00,23.02,477.02,114.000000,-33.000000,185.100000,3.937,355.8,21.7,-0.92390,0.38270,0.00000,0.00000,-90.00,-0.00,0.00,-14.00,124.00,-62.00,448.00,1.00,-2.00,16.00,16.0,0,0,0,0,0,0,1,1,0,0,0,1,0,0,0,0,0,1612
9700.000,37.7750240,-122.4195240,571.456,17,1.3,-1.500,2.500,-0.900,4.0,7.0,-0.598550,-0.598550,76.614453,4.979939,3.447650,9.193734,-140.000000,-192.640000,-122.780000,95625.00,23.01,485.74,112.500000,-33.750000,185.100000,3.929,386.4,20.8,-0.92390,0.38270,0.00000,0.00000,-90.00,-0.00,0.00,-13.75,125.00,-62.50,456.00,1.00,-2.00,12.00,12.0,0,0,0,0,0,0,1,1,0,0,0,1,0,0,0,0,0,1625
9800.000,37.7750260,-122.4195260,587.456,17,1.3,-1.500,2.500,-0.900,4.0,7.0,-0.584185,-0.565032,76.614453,5.056554,3.524265,9.193734,-140.000000,-187.460000,-115.360000,95525.00,23.01,494.47,111.000000,-34.500000,185.100000,3.929,386.4,20.8,-0.92390,0.38270,0.00000,0.00000,-90.00,-0.00,0.00,-13.50,126.00,-63.00,464.00,1.00,-2.00,8.00,8.0,0,0,0,0,0,0,1,1,0,0,0,1,0,0,0,0,0,1638
9900.000,37.7750260,-122.4195260,587.456,17,1.3,-1.500,2.500,-0.900,4.0,7.0,-0.569820,-0.531513,76.614453,5.133168,3.600879,9.193734,-140.000000,-182.280000,-107.940000,95425.00,23.00,503.20,109.500000,-35.250000,185.100000,3.929,386.4,20.8,-0.92390,0.38270,0.00000,0.00000,-90.00,-0.00,0.00,-13.25,127.00,-63.50,472.00,1.00,-2.00,4.00,4.0,0,0,1,0,0,0,1,1,0,0,0,1,0,0,0,0,0,1651
10000.000,37.7750280,-122.4195280,603.456,17,1.3,-1.500,2.500,-0.900,4.0,7.0,-0.555455,-0.497994,76.614453,5.209783,3.677494,9.193734,-140.000000,-177.100000,-100.520000,95325.00,23.00,511.95,108.000000,-36.000000,185.100000,3.929,386.4,20.8,1.00000,0.00000,0.00000,0.00000,-0.00,0.00,0.00,-13.00,128.00,-64.00,480.00,1.00,-2.00,0.00,0.0,0,1,1,0,0,1,1,1,1,0,0,1,1,0,0,0,0,1664
10100.000,37.7750280,-122.4195280,603.456,17,1.3,-1.500,2.500,-0.900,4.0,7.0,-0.541090,-0.464475,76.614453,5.286397,3.754108,9.193734,-140.000000,-171.920000,-93.100000,95418.75,23.00,503.75,106.500000,-36.750000,185.100000,3.929,386.4,20.8,1.00000,0.00000,0.00000,0.00000,-0.00,0.00,0.00,-12.75,129.00,-64.50,488.00,1.00,-2.00,-2.00,-2.0,0,1,1,1,0,1,1,1,1,0,0,1,1,0,0,0,0,1677
10200.000,37.7750300,-122.4195300,595.456,17,1.3,-1.500,2.500,-0.900,4.0,7.0,-0.526724,-0.430956,76.614453,5.363012,3.830723,9.193734,-140.000000,-166.740000,-85.680000,95512.50,22.99,495.56,105.000000,-37.500000,185.100000,3.922,416.9,19.9,1.00000,0.00000,0.00000,0.00000,-0.00,0.00,0.00,-12.50,130.00,-65.00,496.00,1.00,-2.00,-4.00,-4.0,0,1,1,1,0,1,1,1,1,0,0,1,1,0,0,0,0,1690
10300.000,37.7750300,-122.4195300,595.456,17,1.3,-1.500,2.500,-0.900,4.0,7.0,-0.512359,-0.397437,76.614453,5.439626,3.907337,9.193734,-140.000000,-161.560000,-78.260000,95606.25,22.99,487.37,103.500000,-38.250000,185.100000,3.922,416.9,19.9,1.00000,0.00000,0.00000,0.00000,-0.00,0.00,0.00,-12.25,131.00,-65.50,504.00,1.00,-2.00,-6.00,-6.0,0,1,1,1,0,1,1,1,1,0,0,1,1,0,0,0,0,1703
10400.000,37.7750320,-122.4195320,587.456,17,1.3,-1.500,2.500,-0.900,4.0,7.0,-0.497994,-0.363919,76.614453,5.516241,3.983952,9.193734,-140.000000,-156.380000,-70.840000,95700.00,22.98,479.20,102.000000,-39.000000,185.100000,3.922,416.9,19.9,0.92390,0.38270,0.00000,0.00000,90.00,0.00,0.00,-12.00,132.00,-66.00,512.00,1.00,-2.00,-8.00,-8.0,0,1,1,1,0,1,1,1,1,0,0,1,1,0,0,0,0,1716
10500.000,37.7750320,-122.4195320,587.456,17,1.3,-1.500,2.500,-0.900,4.0,7.0,-0.483629,-0.330400,76.614453,5.592855,4.060566,9.193734,-140.000000,-151.200000,-63.420000,95793.75,22.98,471.02,100.500000,-39.750000,185.100000,3.922,416.9,19.9,0.92390,0.38270,0.00000,0.00000,90.00,0.00,0.00,-11.75,133.00,-66.50,520.00,1.00,-2.00,-10.00,-10.0,0,1,1,1,0,1,1,1,1,0,0,1,1,0,0,0,0,1729
10600.000,37.7750340,-122.4195340,579.456,17,1.3,-1.500,2.500,-0.900,4.0,7.0,-0.469264,-0.296881,76.614453,5.669470,4.137180,9.193734,-140.000000,-146.020000,-56.000000,95887.50,22.98,462.86,99.000000,-40.500000,185.100000,3.922,416.9,19.9,0.92390,0.38270,0.00000,0.00000,90.00,0.00,0.00,-11.50,134.00,-67.00,528.00,1.00,-2.00,-12.00,-12.0,0,1,1,1,0,1,1,1,1,0,0,1,1,0,0,0,0,1742
10700.000,37.7750340,-122.4195340,579.456,17,1.3,-1.500,2.500,-0.900,4.0,7.0,-0.454898,-0.263362,76.614453,5.746084,4.213795,9.193734,-140.000000,-140.840000,-48.580000,95981.25,22.97,454.70,97.500000,-41.250000,185.100000,3.914,447.4,18.9,0.92390,0.38270,0.00000,0.00000,90.00,0.00,0.00,-11.25,135.00,-67.50,536.00,1.00,-2.00,-14.00,-14.0,0,1,1,1,0,1,1,1,1,0,0,1,1,0,0,0,0,1755
10800.000,37.7750360,-122.4195360,571.456,17,1.3,-1.500,2.500,-0.900,4.0,7.0,-0.440533,-0.229843,76.614453,5.822698,4.290409,9.193734,-140.000000,-135.660000,-41.160000,96075.00,22.97,446.55,96.000000,-42.000000,185.100000,3.914,447.4,18.9,0.70710,0.70710,0.00000,0.00000,90.00,0.00,0.00,-11.00,136.00,-68.00,544.00,1.00,-2.00,-16.00,-16.0,0,1,1,1,0,1,1,1,1,0,0,1,1,0,0,0,0,1768
10900.000,37.7750360,-122.4195360,571.456,17,1.3,-1.500,2.500,-0.900,4.0,7.0,-0.426168,-0.196325,76.614453,5.899313,4.367024,9.193734,-140.000000,-130.480000,-33.740000,96168.75,22.96,438.40,94.500000,-42.750000,185.100000,3.914,447.4,18.9,0.70710,0.70710,0.00000,0.00000,90.00,0.00,0.00,-10.75,137.00,-68.50,552.00,1.00,-2.00,-18.00,-18.0,0,1,1,1,0,1,1,1,1,0,0,1,1,0,0,0,0,1781
11000.000,37.7750380,-122.4195380,563.456,17,1.3,-1.500,2.500,-0.900,4.0,7.0,-0.411803,-0.162806,76.614453,5.975927,4.443638,9.193734,-140.000000,-125.300000,-26.320000,96262.50,22.96,430.26,93.000000,-43.500000,185.100000,3.914,447.4,18.9,0.70710,0.70710,0.00000,0.00000,90.00,0.00,0.00,-10.50,138.00,-69.00,560.00,1.00,-2.00,-20.00,-20.0,0,1,1,1,0,1,1,1,1,0,0,1,1,0,0,0,0,1794
11100.000,37.7750380,-122.4195380,563.456,17,1.3,-1.500,2.500,-0.900,4.0,7.0,-0.397437,-0.129287,76.614453,6.052542,4.520253,9.193734,-140.000000,-120.120000,-18.900000,96356.25,22.96,422.13,91.500000,-44.250000,185.100000,3.914,447.4,18.9,0.70710,0.70710,0.00000,0.00000,90.00,0.00,0.00,-10.25,139.00,-69.50,568.00,1.00,-2.00,-22.00,-22.0,0,1,1,1,0,1,1,1,1,0,0,1,1,0,0,0,0,1807
11200.000,37.7750400,-122.4195400,555.456,17,1.3,-1.500,2.500,-0.900,4.0,7.0,-0.383072,-0.095768,76.614453,6.129156,4.596867,9.193734,-140.000000,-114.940000,-11.480000,96450.00,22.95,414.01,90.000000,-45.000000,185.100000,3.906,477.9,18.0,0.38270,0.92390,0.00000,0.00000,90.00,0.00,0.00,-10.00,140.00,-70.00,576.00,1.00,-2.00,-24.00,-24.0,0,1,1,1,0,1,1,1,1,0,0,1,1,0,0,0,0,1820
11300.000,37.7750400,-122.4195400,555.456,17,1.3,-1.500,2.500,-0.900,4.0,7.0,-0.368707,-0.062249,76.614453,6.205771,4.673482,9.193734,-140.000000,-109.760000,-4.060000,96543.75,22.95,405.89,88.500000,-45.750000,185.100000,3.906,477.9,18.0,0.38270,0.92390,0.00000,0.00000,90.00,0.00,0.00,-9.75,141.00,-70.50,584.00,1.00,-2.00,-26.00,-26.0,0,1,1,1,0,1,1,1,1,0,0,1,1,0,0,0,0,1833
11400.000,37.7750420,-122.4195420,547.456,17,1.3,-1.500,2.500,-0.900,4.0,7.0,-0.354342,-0.028730,76.614453,6.282385,4.750096,9.193734,-140.000000,-104.580000,3.360000,96637.50,22.95,397.77,87.000000,-46.500000,185.100000,3.906,477.9,18.0,0.38270,0.92390,0.00000,0.00000,90.00,0.00,0.00,-9.50,142.00,-71.00,592.00,1.00,-2.00,-28.00,-28.0,0,1,1,1,0,1,1,1,1,0,0,1,1,0,0,0,0,1846
11500.000,37.7750420,-122.4195420,547.456,17,1.3,-1.500,2.500,-0.900,4.0,7.0,-0.339977,0.004788,76.614453,6.359000,4.826711,9.193734,-140.000000,-99.400000,10.780000,96731.25,22.94,389.67,85.500000,-47.250000,185.100000,3.906,477.9,18.0,0.38270,0.92390,0.00000,0.00000,90.00,0.00,0.00,-9.25,143.00,-71.50,600.00,1.00,-2.00,-30.00,-30.0,0,1,1,1,0,1,1,1,1,0,0,1,1,0,0,0,0,1859
11600.000,37.7750440,-122.4195440,539.456,17,1.3,-1.500,2.500,-0.900,4.0,7.0,-0.325611,0.038307,76.614453,6.435614,4.903325,9.193734,-140.000000,-94.220000,18.200000,96825.00,22.94,381.56,84.000000,-48.000000,185.100000,3.906,477.9,18.0,0.00000,1.00000,0.00000,0.00000,-0.00,0.00,0.00,-9.00,144.00,-72.00,608.00,1.00,-2.00,-32.00,-32.0,0,1,1,1,0,1,1,1,1,0,0,1,1,0,0,0,0,1872
11700.000,37.7750440,-122.4195440,539.456,17,1.3,-1.500,2.500,-0.900,4.0,7.0,-0.311246,0.071826,76.614453,6.512229,4.979939,9.193734,-140.000000,-89.040000,25.620000,96918.75,22.93,373.47,82.500000,-48.750000,185.100000,3.899,508.4,17.1,0.00000,1.00000,0.00000,0.00000,-0.00,0.00,0.00,-8.75,145.00,-72.50,616.00,1.00,-2.00,-34.00,-34.0,0,1,1,1,0,1,1,1,1,0,0,1,1,0,0,0,0,1885
11800.000,37.7750460,-122.4195460,531.456,17,1.3,-1.500,2.500,-0.900,4.0,7.0,-0.296881,0.105345,76.614453,6.588843,5.056554,9.193734,-140.000000,-83.860000,33.040000,97012.50,22.93,365.38,81.000000,-49.500000,185.100000,3.899,508.4,17.1,0.00000,1.00000,0.00000,0.00000,-0.00,0.00,0.00,-8.50,146.00,-73.00,624.00,1.00,-2.00,-36.00,-36.0,0,1,1,1,0,1,1,1,1,0,0,1,1,0,0,0,0,1898
11900.000,37.7750460,-122.4195460,531.456,17,1.3,-1.500,2.500,-0.900,4.0,7.0,-0.282516,0.138864,76.614453,6.665457,5.133168,9.193734,-140.000000,-78.680000,40.460000,97106.25,22.93,357.30,79.500000,-50.250000,185.100000,3.899,508.4,17.1,0.00000,1.00000,0.00000,0.00000,-0.00,0.00,0.00,-8.25,147.00,-73.50,632.00,1.00,-2.00,-38.00,-38.0,0,1,1,1,0,1,1,1,1,0,0,1,1,0,0,0,0,1911
12000.000,37.7750480,-122.4195480,523.456,17,1.3,-1.500,2.500,-0.900,4.0,7.0,-0.268151,0.172383,76.614453,6.742072,5.209783,9.193734,-140.000000,-73.500000,47.880000,97200.00,22.92,349.23,78.000000,-51.000000,185.100000,3.899,508.4,17.1,-0.38270,0.92390,0.00000,0.00000,-90.00,-0.00,0.00,-8.00,148.00,-74.00,640.00,1.00,-2.00,-40.00,-40.0,0,1,1,1,0,1,1,1,1,0,0,1,1,0,0,0,0,1924
12100.000,37.7750480,-122.4195480,523.456,17,1.3,-1.500,2.500,-0.900,4.0,7.0,-0.253785,0.205901,76.614453,6.818686,5.286397,9.193734,-140.000000,-68.320000,55.300000,97293.75,22.92,341.16,76.500000,-51.750000,185.100000,3.899,508.4,17.1,-0.38270,0.92390,0.00000,0.00000,-90.00,-0.00,0.00,-7.75,149.00,-74.50,648.00,1.00,-2.00,-42.00,-42.0,0,1,1,1,0,1,1,1,1,0,0,1,1,0,0,0,0,1937
12200.000,37.7750500,-122.4195500,515.456,17,1.3,-1.500,2.500,-0.900,4.0,7.0,-0.239420,0.239420,76.614453,6.895301,5.363012,9.193734,-140.000000,-63.140000,62.720000,97387.50,22.91,333.09,75.000000,-52.500000,185.100000,3.891,539.0,16.2,-0.38270,0.92390,0.00000,0.00000,-90.00,-0.00,0.00,-7.50,150.00,-75.00,656.00,1.00,-2.00,-44.00,-44.0,0,1,1,1,0,1,1,1,1,0,0,1,1,0,0,0,0,1950
12300.000,37.7750500,-122.4195500,515.456,17,1.3,-1.500,2.500,-0.900,4.0,7.0,-0.225055,0.272939,76.614453,6.971915,5.439626,9.193734,-140.000000,-57.960000,70.140000,97481.25,22.91,325.04,73.500000,-53.250000,185.100000,3.891,539.0,16.2,-0.38270,0.92390,0.00000,0.00000,-90.00,-0.00,0.00,-7.25,151.00,-75.50,664.00,1.00,-2.00,-46.00,-46.0,0,1,1,1,0,1,1,1,1,0,0,1,1,0,0,0,0,1963
12400.000,37.7750520,-122.4195520,507.456,17,1.3,-1.500,2.500,-0.900,4.0,7.0,-0.210690,0.306458,76.614453,7.048530,5.516241,9.193734,-140.000000,-52.780000,77.560000,97575.00,22.91,316.99,72.000000,-54.000000,185.100000,3.891,539.0,16.2,-0.70710,0.70710,0.00000,0.00000,-90.00,-0.00,0.00,-7.00,152.00,-76.00,672.00,1.00,-2.00,-48.00,-48.0,0,1,1,1,0,1,1,1,1,0,0,1,1,0,0,0,0,1976
12500.000,37.7750520,-122.4195520,507.456,17,1.3,-1.500,2.500,-0.900,4.0,7.0,-0.196325,0.339977,76.614453,7.125144,5.592855,9.193734,-140.000000,-47.600000,84.980000,97668.75,22.90,308.94,70.500000,-54.750000,185.100000,3.891,539.0,16.2,-0.70710,0.70710,0.00000,0.00000,-90.00,-0.00,0.00,-6.75,153.00,-76.50,680.00,1.00,-2.00,-50.00,-50.0,0,1,1,1,0,1,1,1,1,0,0,1,1,0,0,0,0,1989
12600.000,37.7750540,-122.4195540,499.456,17,1.3,-1.500,2.500,-0.900,4.0,7.0,-0.181959,0.373495,76.614453,7.201759,5.669470,9.193734,-140.000000,-42.420000,92.400000,97762.50,22.90,300.90,69.000000,-55.500000,185.100000,3.891,539.0,16.2,-0.70710,0.70710,0.00000,0.00000,-90.00,-0.00,0.00,-6.50,154.00,-77.00,688.00,1.00,-2.00,-52.00,-52.0,0,1,1,1,0,1,1,1,1,0,0,1,1,0,0,0,0,2002
12700.000,37.7750540,-122.4195540,499.456,17,1.3,-1.500,2.500,-0.900,4.0,7.0,-0.167594,0.407014,76.614453,7.278373,5.746084,9.193734,-140.000000,-37.240000,99.820000,97856.25,22.89,292.87,67.500000,-56.250000,185.100000,3.883,569.5,15.3,-0.70710,0.70710,0.00000,0.00000,-90.00,-0.00,0.00,-6.25,155.00,-77.50,696.00,1.00,-2.00,-54.00,-54.0,0,1,1,1,0,1,1,1,1,0,0,1,1,0,0,0,0,2015
12800.000,37.7750560,-122.4195560,491.456,17,1.3,-1.500,2.500,-0.900,4.0,7.0,-0.153229,0.440533,76.614453,7.354988,5.822698,9.193734,-140.000000,-32.060000,107.240000,97950.00,22.89,284.85,66.000000,-57.000000,185.100000,3.883,569.5,15.3,-0.92390,0.38270,0.00000,0.00000,-90.00,-0.00,0.00,-6.00,156.00,-78.00,704.00,1.00,-2.00,-56.00,-56.0,0,1,1,1,0,1,1,1,1,0,0,1,1,0,0,0,0,2028
12900.000,37.7750560,-122.4195560,491.456,17,1.3,-1.500,2.500,-0.900,4.0,7.0,-0.138864,0.474052,76.614453,7.431602,5.899313,9.193734,-140.000000,-26.880000,114.660000,98043.75,22.89,276.83,64.500000,-57.750000,185.100000,3.883,569.5,15.3,-0.92390,0.38270,0.00000,0.00000,-90.00,-0.00,0.00,-5.75,157.00,-78.50,712.00,1.00,-2.00,-58.00,-58.0,0,1,1,1,0,1,1,1,1,0,0,1,1,0,0,0,0,2041
13000.000,37.7750580,-122.4195580,483.456,17,1.3,-1.500,2.500,-0.900,4.0,7.0,-0.124498,0.507571,76.614453,7.508216,5.975927,9.193734,-140.000000,-21.700000,122.080000,98137.50,22.88,268.82,63.000000,-58.500000,185.100000,3.883,569.5,15.3,-0.92390,0.38270,0.00000,0.00000,-90.00,-0.00,0.00,-5.50,158.00,-79.00,720.00,1.00,-2.00,-60.00,-60.0,0,1,1,1,0,1,1,1,1,0,0,1,1,0,0,0,0,2054
13100.000,37.7750580,-122.4195580,483.456,17,1.3,-1.500,2.500,-0.900,4.0,7.0,-0.110133,0.541090,76.614453,7.584831,6.052542,9.193734,-140.000000,-16.520000,129.500000,98231.25,22.88,260.81,61.500000,-59.250000,185.100000,3.883,569.5,15.3,-0.92390,0.38270,0.00000,0.00000,-90.00,-0.00,0.00,-5.25,159.00,-79.50,728.00,1.00,-2.00,-62.00,-62.0,0,1,1,1,0,1,1,1,1,0,0,1,1,0,0,0,0,2067
13200.000,37.7750600,-122.4195600,475.456,17,1.3,-1.500,2.500,-0.900,4.0,7.0,-0.095768,0.574608,76.614453,7.661445,6.129156,9.193734,-140.000000,-11.340000,136.920000,98325.00,22.88,252.81,60.000000,-60.000000,185.100000,3.876,600.0,14.4,1.00000,0.00000,0.00000,0.00000,-0.00,0.00,0.00,-5.00,160.00,-80.00,736.00,1.00,-2.00,-64.00,-64.0,0,1,1,1,0,1,1,1,1,0,0,1,1,0,0,0,0,2080
13300.000,37.7750600,-122.4195600,475.456,17,1.3,-1.500,2.500,-0.900,4.0,7.0,-0.081403,0.608127,76.614453,7.738060,6.205771,9.193734,-140.000000,-6.160000,144.340000,98418.75,22.87,244.81,58.500000,-60.750000,185.100000,3.876,600.0,14.4,1.00000,0.00000,0.00000,0.00000,-0.00,0.00,0.00,-4.75,161.00,-80.50,744.00,1.00,-2.00,-66.00,-66.0,0,1,1,1,0,1,1,1,1,0,0,1,1,0,0,0,0,2093
13400.000,37.7750620,-122.4195620,467.456,17,1.3,-1.500,2.500,-0.900,4.0,7.0,-0.067038,0.641646,76.614453,7.814674,6.282385,9.193734,-140.000000,-0.980000,151.760000,98512.50,22.87,236.83,57.000000,-61.500000,185.100000,3.876,600.0,14.4,1.00000,0.00000,0.00000,0.00000,-0.00,0.00,0.00,-4.50,162.00,-81.00,752.00,1.00,-2.00,-68.00,-68.0,0,1,1,1,0,1,1,1,1,0,0,1,1,0,0,0,0,2106
13500.000,37.7750620,-122.4195620,467.456,17,1.3,-1.500,2.500,-0.900,4.0,7.0,-0.052672,0.675165,76.614453,7.891289,6.359000,9.193734,-140.000000,4.200000,159.180000,98606.25,22.86,228.84,55.500000,-62.250000,185.100000,3.876,600.0,14.4,1.00000,0.00000,0.00000,0.00000,-0.00,0.00,0.00,-4.25,163.00,-81.50,760.00,1.00,-2.00,-70.00,-70.0,0,1,1,1,0,1,1,1,1,0,0,1,1,0,0,0,0,2119
13600.000,37.7750640,-122.4195640,459.456,17,1.3,-1.500,2.500,-0.900,4.0,7.0,-0.038307,0.708684,76.614453,7.967903,6.435614,9.193734,-140.000000,9.380000,166.600000,98700.00,22.86,220.87,54.000000,-63.000000,185.100000,3.876,600.0,14.4,0.92390,0.38270,0.00000,0.00000,90.00,0.00,0.00,-4.00,164.00,-82.00,768.00,1.00,-2.00,-72.00,-72.0,0,1,1,1,0,1,1,1,1,0,0,1,1,0,0,0,0,2132
13700.000,37.7750640,-122.4195640,459.456,17,1.3,-1.500,2.500,-0.900,4.0,7.0,-0.023942,0.742203,76.614453,8.044518,6.512229,9.193734,-140.000000,14.560000,174.020000,98793.75,22.86,212.90,52.500000,-63.750000,185.100000,3.868,630.5,13.5,0.92390,0.38270,0.00000,0.00000,90.00,0.00,0.00,-3.75,165.00,-82.50,776.00,1.00,-2.00,-74.00,-74.0,0,1,1,1,0,1,1,1,1,0,0,1,1,0,0,0,0,2145
13800.000,37.7750660,-122.4195660,451.456,17,1.3,-1.500,2.500,-0.900,4.0,7.0,-0.009577,0.775721,76.614453,8.121132,6.588843,9.193734,-140.000000,19.740000,181.440000,98887.50,22.85,204.94,51.000000,-64.500000,185.100000,3.868,630.5,13.5,0.92390,0.38270,0.00000,0.00000,90.00,0.00,0.00,-3.50,166.00,-83.00,784.00,1.00,-2.00,-76.00,-76.0,0,1,1,1,0,1,1,1,1,0,0,1,1,0,0,0,0,2158
13900.000,37.7750660,-122.4195660,451.456,17,1.3,-1.500,2.500,-0.900,4.0,7.0,0.004788,0.809240,76.614453,8.197746,6.665457,9.193734,-140.000000,24.920000,188.860000,98981.25,22.85,196.98,49.500000,-65.250000,185.100000,3.868,630.5,13.5,0.92390,0.38270,0.00000,0.00000,90.00,0.00,0.00,-3.25,167.00,-83.50,792.00,1.00,-2.00,-78.00,-78.0,0,1,1,1,0,1,1,1,1,0,0,1,1,0,0,0,0,2171
14000.000,37.7750680,-122.4195680,443.456,17,1.3,-1.500,2.500,-0.900,4.0,7.0,0.019154,0.842759,76.614453,8.274361,6.742072,9.193734,-140.000000,30.100000,196.280000,99075.00,22.84,189.03,48.000000,-66.000000,185.100000,3.868,630.5,13.5,0.70710,0.70710,0.00000,0.00000,90.00,0.00,0.00,-3.00,168.00,-84.00,800.00,1.00,-2.00,-80.00,-80.0,0,1,1,1,0,1,1,1,1,0,0,1,1,0,0,0,0,2184
14100.000,37.7750680,-122.4195680,443.456,17,1.3,-1.500,2.500,-0.900,4.0,7.0,0.033519,0.876278,76.614453,8.350975,6.818686,9.193734,-140.000000,35.280000,203.700000,99168.75,22.84,181.08,46.500000,-66.750000,185.100000,3.868,630.5,13.5,0.70710,0.70710,0.00000,0.00000,90.00,0.00,0.00,-2.75,169.00,-84.50,808.00,1.00,-2.00,-82.00,-82.0,0,1,1,1,0,1,1,1,1,0,0,1,1,0,0,0,0,2197
14200.000,37.7750700,-122.4195700,435.456,17,1.3,-1.500,2.500,-0.900,4.0,7.0,0.047884,0.909797,76.614453,8.427590,6.895301,9.193734,-140.000000,40.460000,-209.020000,99262.50,22.84,173.14,45.000000,-67.500000,185.100000,3.861,661.0,12.5,0.70710,0.70710,0.00000,0.00000,90.00,0.00,0.00,-2.50,170.00,-85.00,816.00,1.00,-2.00,-84.00,-84.0,0,1,1,1,0,1,1,1,1,0,0,1,1,0,0,0,0,2210
14300.000,37.7750700,-122.4195700,435.456,17,1.3,-1.500,2.500,-0.900,4.0,7.0,0.062249,0.943315,76.614453,8.504204,6.971915,9.193734,-140.000000,45.640000,-201.600000,99356.25,22.83,165.21,43.500000,-68.250000,185.100000,3.861,661.0,12.5,0.70710,0.70710,0.00000,0.00000,90.00,0.00,0.00,-2.25,171.00,-85.50,824.00,1.00,-2.00,-86.00,-86.0,0,1,1,1,0,1,1,1,1,0,0,1,1,0,0,0,0,2223
14400.000,37.7750720,-122.4195720,427.456,17,1.3,-1.500,2.500,-0.900,4.0,7.0,0.076614,0.976834,76.614453,8.580819,7.048530,9.193734,-140.000000,50.820000,-194.180000,99450.00,22.83,157.28,42.000000,-69.000000,185.100000,3.861,661.0,12.5,0.38270,0.92390,0.00000,0.00000,90.00,0.00,0.00,-2.00,172.00,-86.00,832.00,1.00,-2.00,-88.00,-88.0,0,1,1,1,0,1,1,1,1,0,0,1,1,0,0,0,0,2236
14500.000,37.7750720,-122.4195720,427.456,17,1.3,-1.500,2.500,-0.900,4.0,7.0,0.090980,1.010353,76.614453,8.657433,7.125144,9.193734,-140.000000,56.000000,-186.760000,99543.75,22.82,149.36,40.500000,-69.750000,185.100000,3.861,661.0,12.5,0.38270,0.92390,0.00000,0.00000,90.00,0.00,0.00,-1.75,173.00,-86.50,840.00,1.00,-2.00,-90.00,-90.0,0,1,1,1,0,1,1,1,1,0,0,1,1,0,0,0,0,2249
14600.000,37.7750740,-122.4195740,419.456,17,1.3,-1.500,2.500,-0.900,4.0,7.0,0.105345,1.043872,76.614453,8.734048,7.201759,9.193734,-140.000000,61.180000,-179.340000,99637.50,22.82,141.45,39.000000,-70.500000,185.100000,3.861,661.0,12.5,0.38270,0.92390,0.00000,0.00000,90.00,0.00,0.00,-1.50,174.00,-87.00,848.00,1.00,-2.00,-92.00,-92.0,0,1,1,1,0,1,1,1,1,0,0,1,1,0,0,0,0,2262
14700.000,37.7750740,-122.4195740,419.456,17,1.3,-1.500,2.500,-0.900,4.0,7.0,0.119710,1.077391,76.614453,8.810662,7.278373,9.193734,-140.000000,66.360000,-171.920000,99731.25,22.82,133.54,37.500000,-71.250000,185.100000,3.853,691.5,11.6,0.38270,0.92390,0.00000,0.00000,90.00,0.00,0.00,-1.25,175.00,-87.50,856.00,1.00,-2.00,-94.00,-94.0,0,1,1,1,0,1,1,1,1,0,0,1,1,0,0,0,0,2275
14800.000,37.7750760,-122.4195760,411.456,17,1.3,-1.500,2.500,-0.900,4.0,7.0,0.134075,1.110910,76.614453,8.887277,7.354987,9.193734,-140.000000,71.540000,-164.500000,99825.00,22.81,125.63,36.000000,-72.000000,185.100000,3.853,691.5,11.6,0.00000,1.00000,0.00000,0.00000,-0.00,0.00,0.00,-1.00,176.00,-88.00,864.00,1.00,-2.00,-96.00,-96.0,0,1,1,1,0,1,1,1,1,0,0,1,1,0,0,0,0,2288
14900.000,37.7750760,-122.4195760,411.456,17,1.3,-1.500,2.500,-0.900,4.0,7.0,0.148441,1.144428,76.614453,8.963891,7.431602,9.193734,-140.000000,76.720000,-157.080000,99918.75,22.81,117.74,34.500000,-72.750000,185.100000,3.853,691.5,11.6,0.00000,1.00000,0.00000,0.00000,-0.00,0.00,0.00,-0.75,177.00,-88.50,872.00,1.00,-2.00,-98.00,-98.0,0,1,1,1,0,1,1,1,1,0,0,1,1,0,0,0,0,2301
15000.000,37.7750780,-122.4195780,403.456,17,1.3,-1.500,2.500,-0.900,4.0,7.0,0.162806,1.177947,76.614453,9.040505,7.508216,9.193734,-140.000000,81.900000,-149.660000,100012.50,22.80,109.85,33.000000,-73.500000,185.100000,3.853,691.5,11.6,0.00000,1.00000,0.00000,0.00000,-0.00,0.00,0.00,-0.50,178.00,-89.00,880.00,1.00,-2.00,-100.00,-100.0,1,1,1,1,0,1,1,1,1,0,0,1,1,0,0,0,0,2314
15100.000,37.7750780,-122.4195780,403.456,17,1.3,-1.500,2.500,-0.900,4.0,7.0,0.177171,1.211466,76.614453,9.117120,7.584831,9.193734,-140.000000,87.080000,-142.240000,100106.25,22.80,101.96,31.500000,-74.250000,185.100000,3.853,691.5,11.6,0.00000,1.00000,0.00000,0.00000,-0.00,0.00,0.00,-0.25,179.00,-89.50,888.00,1.00,-2.00,-102.00,-102.0,1,1,1,1,0,1,1,1,1,0,0,1,1,0,0,0,0,2327
15200.000,37.7750800,-122.4195800,395.456,17,1.3,-1.500,2.500,-0.900,4.0,7.0,0.191536,1.244985,76.614453,9.193734,7.661445,9.193734,-140.000000,92.260000,-134.820000,100200.00,22.80,94.08,30.000000,-75.000000,185.100000,3.845,722.1,10.7,-0.38270,0.92390,0.00000,0.00000,-90.00,-0.00,0.00,0.00,180.00,-90.00,896.00,1.00,-2.00,-104.00,-104.0,1,1,1,1,0,1,1,1,1,0,0,1,1,0,0,0,0,2340
15300.000,37.7750800,-122.4195800,395.456,17,1.3,-1.500,2.500,-0.900,4.0,7.0,0.205901,1.278504,76.614453,9.270349,7.738060,9.193734,-140.000000,97.440000,-127.400000,100293.75,22.79,86.21,28.500000,-75.750000,185.100000,3.845,722.1,10.7,-0.38270,0.92390,0.00000,0.00000,-90.00,-0.00,0.00,0.25,181.00,-90.50,904.00,1.00,-2.00,-106.00,-106.0,1,1,1,1,0,1,1,1,1,0,0,1,1,0,0,0,0,2353
15400.000,37.7750820,-122.4195820,387.456,17,1.3,-1.500,2.500,-0.900,4.0,7.0,0.220267,1.312023,76.614453,9.346963,7.814674,9.193734,-140.000000,102.620000,-119.980000,100387.50,22.79,78.34,27.000000,-76.500000,185.100000,3.845,722.1,10.7,-0.38270,0.92390,0.00000,0.00000,-90.00,-0.00,0.00,0.50,182.00,-91.00,912.00,1.00,-2.00,-108.00,-108.0,1,1,1,1,0,1,1,1,1,0,0,1,1,0,0,0,0,2366
15500.000,37.7750820,-122.4195820,387.456,17,1.3,-1.500,2.500,-0.900,4.0,7.0,0.234632,1.345541,76.614453,9.423578,7.891289,9.193734,-140.000000,107.800000,-112.560000,100481.25,22.79,70.48,25.500000,-77.250000,185.100000,3.845,722.1,10.7,-0.38270,0.92390,0.00000,0.00000,-90.00,-0.00,0.00,0.75,183.00,-91.50,920.00,1.00,-2.00,-110.00,-110.0,1,1,1,1,0,1,1,1,1,0,0,1,1,0,0,0,0,2379
15600.000,37.7750840,-122.4195840,379.456,17,1.3,-1.500,2.500,-0.900,4.0,7.0,0.248997,1.379060,76.614453,9.500192,7.967903,9.193734,-140.000000,112.980000,-105.140000,100575.00,22.78,62.63,24.000000,-78.000000,185.100000,3.845,722.1,10.7,-0.70710,0.70710,0.00000,0.00000,-90.00,-0.00,0.00,1.00,184.00,-92.00,928.00,1.00,-2.00,-112.00,-112.0,1,1,1,1,0,1,1,1,1,0,0,1,1,0,0,0,0,2392
15700.000,37.7750840,-122.4195840,379.456,17,1.3,-1.500,2.500,-0.900,4.0,7.0,0.263362,1.412579,76.614453,9.576807,8.044518,9.193734,-140.000000,118.160000,-97.720000,100668.75,22.78,54.78,22.500000,-78.750000,185.100000,3.838,752.6,9.8,-0.70710,0.70710,0.00000,0.00000,-90.00,-0.00,0.00,1.25,185.00,-92.50,936.00,1.00,-2.00,-114.00,-114.0,1,1,1,1,0,1,1,1,1,0,0,1,1,0,0,0,0,2405
15800.000,37.7750860,-122.4195860,371.456,17,1.3,-1.500,2.500,-0.900,4.0,7.0,0.277727,1.446098,76.614453,9.653421,8.121132,9.193734,-140.000000,123.340000,-90.300000,100762.50,22.77,46.93,21.000000,-79.500000,185.100000,3.838,752.6,9.8,-0.70710,0.70710,0.00000,0.00000,-90.00,-0.00,0.00,1.50,186.00,-93.00,944.00,1.00,-2.00,-116.00,-116.0,1,1,1,1,0,1,1,1,1,0,0,1,1,0,0,0,0,2418
15900.000,37.7750860,-122.4195860,371.456,17,1.3,-1.500,2.500,-0.900,4.0,7.0,0.292093,1.479617,76.614453,9.730036,8.197746,9.193734,-140.000000,128.520000,-82.880000,100856.25,22.77,39.10,19.500000,-80.250000,185.100000,3.838,752.6,9.8,-0.70710,0.70710,0.00000,0.00000,-90.00,-0.00,0.00,1.75,187.00,-93.50,952.00,1.00,-2.00,-118.00,-118.0,1,1,1,1,0,1,1,1,1,0,0,1,1,0,0,0,0,2431
16000.000,37.7750880,-122.4195880,363.456,17,1.3,-1.500,2.500,-0.900,4.0,7.0,0.306458,1.513135,76.614453,9.806650,8.274361,9.193734,-140.000000,133.700000,-75.460000,100950.00,22.77,31.26,18.000000,-81.000000,185.100000,3.838,752.6,9.8,-0.92390,0.38270,0.00000,0.00000,-90.00,-0.00,0.00,2.00,188.00,-94.00,960.00,1.00,-2.00,-120.00,-120.0,1,1,1,1,0,1,1,1,1,0,0,1,1,0,0,0,0,2444
